SpectraSuite Data File
++++++++++++++++++++++++++++++++++++
Date: Wed Mar 03 11:01:47 CST 2010
User: tesista
Dark Spectrum Present: No
Reference Spectrum Present: No
Number of Sampled Component Spectra: 1
Spectrometers: USB4C00849
Integration Time (usec): 100000 (USB4C00849)
Spectra Averaged: 1 (USB4C00849)
Boxcar Smoothing: 0 (USB4C00849)
Correct for Electrical Dark: No (USB4C00849)
Strobe/Lamp Enabled: No (USB4C00849)
Correct for Detector Non-linearity: No (USB4C00849)
Correct for Stray Light: No (USB4C00849)
Number of Pixels in Processed Spectrum: 3648
>>>>>Begin Processed Spectral Data<<<<<
177.83	780.28
178.05	780.28
178.26	780.28
178.48	716.79
178.70	788.47
178.92	835.57
179.13	788.47
179.35	815.09
179.57	784.37
179.78	792.56
180.00	862.19
180.22	892.91
180.43	761.84
180.65	823.28
180.87	784.37
181.08	829.43
181.30	913.39
181.52	827.38
181.73	798.71
181.95	792.56
182.17	827.38
182.38	884.72
182.60	882.67
182.82	886.77
183.03	937.97
183.25	894.96
183.47	845.81
183.68	854.00
183.90	821.24
184.11	872.43
184.33	837.62
184.55	796.66
184.76	839.67
184.98	784.37
185.20	847.86
185.41	851.96
185.63	935.92
185.85	823.28
186.06	882.67
186.28	917.49
186.50	796.66
186.71	780.28
186.93	790.52
187.15	784.37
187.36	940.02
187.58	854.00
187.80	872.43
188.01	757.75
188.23	815.09
188.44	776.18
188.66	806.90
188.88	790.52
189.09	890.87
189.31	876.53
189.53	815.09
189.74	794.61
189.96	899.06
190.18	821.24
190.39	829.43
190.61	878.58
190.82	847.86
191.04	813.04
191.26	856.05
191.47	806.90
191.69	823.28
191.91	843.76
192.12	835.57
192.34	870.39
192.55	792.56
192.77	831.48
192.99	845.81
193.20	829.43
193.42	919.54
193.64	854.00
193.85	811.00
194.07	821.24
194.28	792.56
194.50	802.80
194.72	868.34
194.93	843.76
195.15	847.86
195.36	858.10
195.58	868.34
195.80	786.42
196.01	878.58
196.23	872.43
196.44	790.52
196.66	864.24
196.88	827.38
197.09	835.57
197.31	876.53
197.52	827.38
197.74	876.53
197.96	864.24
198.17	909.30
198.39	888.82
198.60	792.56
198.82	864.24
199.04	897.01
199.25	870.39
199.47	890.87
199.68	817.14
199.90	804.85
200.12	888.82
200.33	819.19
200.55	860.15
200.76	905.20
200.98	798.71
201.20	860.15
201.41	800.76
201.63	890.87
201.84	819.19
202.06	794.61
202.27	880.63
202.49	847.86
202.71	796.66
202.92	813.04
203.14	808.95
203.35	905.20
203.57	806.90
203.78	862.19
204.00	866.29
204.22	813.04
204.43	868.34
204.65	854.00
204.86	851.96
205.08	882.67
205.29	800.76
205.51	829.43
205.73	851.96
205.94	874.48
206.16	829.43
206.37	897.01
206.59	849.91
206.80	845.81
207.02	856.05
207.24	847.86
207.45	854.00
207.67	866.29
207.88	804.85
208.10	819.19
208.31	884.72
208.53	786.42
208.74	821.24
208.96	845.81
209.18	870.39
209.39	823.28
209.61	839.67
209.82	796.66
210.04	880.63
210.25	845.81
210.47	886.77
210.68	874.48
210.90	786.42
211.11	864.24
211.33	888.82
211.55	899.06
211.76	905.20
211.98	847.86
212.19	774.13
212.41	825.33
212.62	849.91
212.84	829.43
213.05	835.57
213.27	864.24
213.48	813.04
213.70	884.72
213.91	860.15
214.13	944.11
214.35	796.66
214.56	872.43
214.78	808.95
214.99	886.77
215.21	786.42
215.42	880.63
215.64	858.10
215.85	890.87
216.07	833.52
216.28	804.85
216.50	823.28
216.71	806.90
216.93	886.77
217.14	905.20
217.36	864.24
217.57	833.52
217.79	862.19
218.00	880.63
218.22	860.15
218.43	944.11
218.65	845.81
218.86	884.72
219.08	931.83
219.29	897.01
219.51	817.14
219.72	862.19
219.94	886.77
220.16	839.67
220.37	806.90
220.59	866.29
220.80	808.95
221.02	913.39
221.23	819.19
221.45	919.54
221.66	753.65
221.88	886.77
222.09	831.48
222.31	899.06
222.52	776.18
222.73	843.76
222.95	899.06
223.16	858.10
223.38	888.82
223.59	798.71
223.81	872.43
224.02	897.01
224.24	866.29
224.45	847.86
224.67	800.76
224.88	892.91
225.10	786.42
225.31	888.82
225.53	866.29
225.74	868.34
225.96	790.52
226.17	927.73
226.39	874.48
226.60	894.96
226.82	823.28
227.03	788.47
227.25	829.43
227.46	831.48
227.68	759.80
227.89	858.10
228.11	811.00
228.32	890.87
228.53	858.10
228.75	821.24
228.96	888.82
229.18	864.24
229.39	860.15
229.61	899.06
229.82	780.28
230.04	894.96
230.25	911.35
230.47	835.57
230.68	923.63
230.90	806.90
231.11	790.52
231.32	864.24
231.54	923.63
231.75	862.19
231.97	811.00
232.18	837.62
232.40	888.82
232.61	821.24
232.83	831.48
233.04	757.75
233.26	851.96
233.47	841.72
233.68	847.86
233.90	800.76
234.11	876.53
234.33	845.81
234.54	843.76
234.76	811.00
234.97	790.52
235.19	894.96
235.40	839.67
235.61	815.09
235.83	819.19
236.04	856.05
236.26	825.33
236.47	878.58
236.69	868.34
236.90	772.08
237.11	876.53
237.33	845.81
237.54	870.39
237.76	821.24
237.97	843.76
238.19	847.86
238.40	851.96
238.61	833.52
238.83	880.63
239.04	786.42
239.26	823.28
239.47	886.77
239.69	833.52
239.90	903.15
240.11	829.43
240.33	841.72
240.54	835.57
240.76	813.04
240.97	909.30
241.18	864.24
241.40	831.48
241.61	837.62
241.83	819.19
242.04	786.42
242.26	856.05
242.47	837.62
242.68	866.29
242.90	878.58
243.11	874.48
243.33	843.76
243.54	901.11
243.75	911.35
243.97	856.05
244.18	886.77
244.40	835.57
244.61	917.49
244.82	872.43
245.04	897.01
245.25	872.43
245.47	815.09
245.68	880.63
245.89	819.19
246.11	854.00
246.32	835.57
246.53	821.24
246.75	870.39
246.96	892.91
247.18	927.73
247.39	942.07
247.60	890.87
247.82	817.14
248.03	837.62
248.25	884.72
248.46	835.57
248.67	815.09
248.89	811.00
249.10	854.00
249.31	872.43
249.53	829.43
249.74	839.67
249.96	792.56
250.17	913.39
250.38	868.34
250.60	808.95
250.81	851.96
251.02	851.96
251.24	847.86
251.45	878.58
251.67	802.80
251.88	837.62
252.09	858.10
252.31	823.28
252.52	915.44
252.73	794.61
252.95	851.96
253.16	880.63
253.37	784.37
253.59	872.43
253.80	827.38
254.01	876.53
254.23	870.39
254.44	903.15
254.66	821.24
254.87	901.11
255.08	849.91
255.30	907.25
255.51	843.76
255.72	899.06
255.94	892.91
256.15	880.63
256.36	872.43
256.58	872.43
256.79	866.29
257.00	849.91
257.22	786.42
257.43	886.77
257.64	829.43
257.86	776.18
258.07	851.96
258.28	888.82
258.50	782.32
258.71	925.68
258.92	931.83
259.14	815.09
259.35	839.67
259.56	862.19
259.78	854.00
259.99	829.43
260.20	864.24
260.42	856.05
260.63	864.24
260.84	815.09
261.06	864.24
261.27	894.96
261.48	815.09
261.70	823.28
261.91	821.24
262.12	839.67
262.34	815.09
262.55	862.19
262.76	872.43
262.97	917.49
263.19	856.05
263.40	864.24
263.61	907.25
263.83	847.86
264.04	903.15
264.25	880.63
264.47	774.13
264.68	831.48
264.89	878.58
265.11	813.04
265.32	894.96
265.53	802.80
265.74	864.24
265.96	835.57
266.17	847.86
266.38	837.62
266.60	827.38
266.81	804.85
267.02	819.19
267.24	831.48
267.45	823.28
267.66	864.24
267.87	806.90
268.09	851.96
268.30	798.71
268.51	872.43
268.73	878.58
268.94	819.19
269.15	821.24
269.36	880.63
269.58	794.61
269.79	802.80
270.00	843.76
270.22	925.68
270.43	884.72
270.64	888.82
270.85	802.80
271.07	806.90
271.28	847.86
271.49	796.66
271.71	843.76
271.92	894.96
272.13	847.86
272.34	806.90
272.56	909.30
272.77	860.15
272.98	888.82
273.19	913.39
273.41	858.10
273.62	866.29
273.83	866.29
274.04	821.24
274.26	890.87
274.47	880.63
274.68	774.13
274.90	864.24
275.11	794.61
275.32	870.39
275.53	815.09
275.75	833.52
275.96	903.15
276.17	804.85
276.38	894.96
276.60	851.96
276.81	878.58
277.02	892.91
277.23	849.91
277.45	909.30
277.66	796.66
277.87	897.01
278.08	907.25
278.30	917.49
278.51	849.91
278.72	829.43
278.93	876.53
279.14	880.63
279.36	874.48
279.57	847.86
279.78	829.43
279.99	815.09
280.21	860.15
280.42	856.05
280.63	815.09
280.84	864.24
281.06	841.72
281.27	837.62
281.48	884.72
281.69	866.29
281.90	825.33
282.12	837.62
282.33	860.15
282.54	829.43
282.75	862.19
282.97	860.15
283.18	940.02
283.39	886.77
283.60	837.62
283.81	888.82
284.03	927.73
284.24	753.65
284.45	905.20
284.66	839.67
284.88	765.94
285.09	847.86
285.30	829.43
285.51	901.11
285.72	892.91
285.94	796.66
286.15	901.11
286.36	835.57
286.57	876.53
286.78	845.81
287.00	841.72
287.21	845.81
287.42	798.71
287.63	882.67
287.84	837.62
288.06	884.72
288.27	860.15
288.48	837.62
288.69	802.80
288.90	804.85
289.12	841.72
289.33	837.62
289.54	890.87
289.75	827.38
289.96	923.63
290.17	860.15
290.39	929.78
290.60	903.15
290.81	843.76
291.02	890.87
291.23	876.53
291.45	757.75
291.66	892.91
291.87	892.91
292.08	831.48
292.29	858.10
292.50	815.09
292.72	751.60
292.93	856.05
293.14	856.05
293.35	927.73
293.56	946.16
293.78	866.29
293.99	870.39
294.20	819.19
294.41	841.72
294.62	811.00
294.83	831.48
295.04	856.05
295.26	888.82
295.47	901.11
295.68	962.55
295.89	897.01
296.10	817.14
296.31	847.86
296.53	872.43
296.74	851.96
296.95	827.38
297.16	903.15
297.37	839.67
297.58	835.57
297.80	823.28
298.01	843.76
298.22	899.06
298.43	897.01
298.64	831.48
298.85	854.00
299.06	854.00
299.28	841.72
299.49	872.43
299.70	927.73
299.91	784.37
300.12	821.24
300.33	870.39
300.54	856.05
300.76	837.62
300.97	862.19
301.18	862.19
301.39	821.24
301.60	821.24
301.81	874.48
302.02	950.26
302.23	880.63
302.45	913.39
302.66	913.39
302.87	915.44
303.08	888.82
303.29	890.87
303.50	849.91
303.71	833.52
303.92	905.20
304.14	880.63
304.35	886.77
304.56	823.28
304.77	813.04
304.98	815.09
305.19	837.62
305.40	872.43
305.61	901.11
305.82	796.66
306.04	894.96
306.25	872.43
306.46	851.96
306.67	845.81
306.88	880.63
307.09	946.16
307.30	866.29
307.51	831.48
307.72	819.19
307.93	858.10
308.15	843.76
308.36	856.05
308.57	909.30
308.78	886.77
308.99	919.54
309.20	919.54
309.41	882.67
309.62	792.56
309.83	929.78
310.04	927.73
310.26	835.57
310.47	894.96
310.68	892.91
310.89	833.52
311.10	899.06
311.31	876.53
311.52	811.00
311.73	935.92
311.94	905.20
312.15	952.31
312.36	974.83
312.57	983.02
312.78	1157.10
313.00	1153.01
313.21	1253.36
313.42	1191.92
313.63	1050.61
313.84	1062.90
314.05	1028.08
314.26	946.16
314.47	1011.70
314.68	1034.22
314.89	944.11
315.10	892.91
315.31	909.30
315.52	886.77
315.73	897.01
315.95	921.59
316.16	901.11
316.37	911.35
316.58	915.44
316.79	911.35
317.00	854.00
317.21	892.91
317.42	997.36
317.63	854.00
317.84	942.07
318.05	993.26
318.26	890.87
318.47	960.50
318.68	856.05
318.89	905.20
319.10	903.15
319.31	960.50
319.52	886.77
319.73	987.12
319.94	929.78
320.16	843.76
320.37	960.50
320.58	929.78
320.79	894.96
321.00	956.40
321.21	954.35
321.42	935.92
321.63	983.02
321.84	915.44
322.05	921.59
322.26	890.87
322.47	966.64
322.68	919.54
322.89	925.68
323.10	960.50
323.31	950.26
323.52	950.26
323.73	956.40
323.94	888.82
324.15	952.31
324.36	872.43
324.57	991.22
324.78	958.45
324.99	903.15
325.20	946.16
325.41	917.49
325.62	905.20
325.83	987.12
326.04	956.40
326.25	886.77
326.46	946.16
326.67	862.19
326.88	894.96
327.09	882.67
327.30	878.58
327.51	886.77
327.72	978.93
327.93	874.48
328.14	923.63
328.35	987.12
328.56	915.44
328.77	931.83
328.98	1011.70
329.19	927.73
329.40	923.63
329.61	876.53
329.82	929.78
330.03	923.63
330.24	903.15
330.45	913.39
330.66	909.30
330.87	915.44
331.08	966.64
331.29	1005.55
331.50	987.12
331.71	819.19
331.92	935.92
332.13	937.97
332.34	970.74
332.55	888.82
332.76	1003.50
332.97	968.69
333.18	962.55
333.39	927.73
333.60	942.07
333.81	968.69
334.02	950.26
334.23	1040.37
334.44	968.69
334.65	925.68
334.86	999.41
335.07	952.31
335.28	929.78
335.49	899.06
335.69	1001.46
335.90	915.44
336.11	968.69
336.32	987.12
336.53	929.78
336.74	929.78
336.95	929.78
337.16	897.01
337.37	903.15
337.58	987.12
337.79	966.64
338.00	954.35
338.21	970.74
338.42	909.30
338.63	929.78
338.84	897.01
339.05	958.45
339.26	919.54
339.47	915.44
339.68	972.79
339.88	923.63
340.09	950.26
340.30	921.59
340.51	993.26
340.72	991.22
340.93	897.01
341.14	1001.46
341.35	993.26
341.56	929.78
341.77	940.02
341.98	958.45
342.19	1032.18
342.40	995.31
342.61	995.31
342.81	923.63
343.02	989.17
343.23	985.07
343.44	944.11
343.65	919.54
343.86	980.98
344.07	948.21
344.28	899.06
344.49	915.44
344.70	1005.55
344.91	944.11
345.12	944.11
345.33	915.44
345.53	921.59
345.74	913.39
345.95	892.91
346.16	886.77
346.37	958.45
346.58	931.83
346.79	972.79
347.00	960.50
347.21	968.69
347.42	905.20
347.62	974.83
347.83	950.26
348.04	954.35
348.25	882.67
348.46	905.20
348.67	929.78
348.88	944.11
349.09	978.93
349.30	991.22
349.50	960.50
349.71	929.78
349.92	911.35
350.13	931.83
350.34	870.39
350.55	886.77
350.76	948.21
350.97	892.91
351.18	919.54
351.38	862.19
351.59	866.29
351.80	880.63
352.01	954.35
352.22	923.63
352.43	962.55
352.64	925.68
352.85	913.39
353.05	919.54
353.26	882.67
353.47	907.25
353.68	880.63
353.89	870.39
354.10	868.34
354.31	960.50
354.52	923.63
354.72	935.92
354.93	925.68
355.14	956.40
355.35	917.49
355.56	897.01
355.77	888.82
355.98	991.22
356.18	911.35
356.39	974.83
356.60	940.02
356.81	894.96
357.02	956.40
357.23	876.53
357.43	944.11
357.64	874.48
357.85	948.21
358.06	907.25
358.27	909.30
358.48	854.00
358.69	935.92
358.89	929.78
359.10	901.11
359.31	892.91
359.52	833.52
359.73	864.24
359.94	950.26
360.14	870.39
360.35	876.53
360.56	921.59
360.77	835.57
360.98	905.20
361.19	991.22
361.39	995.31
361.60	792.56
361.81	927.73
362.02	952.31
362.23	913.39
362.44	847.86
362.64	901.11
362.85	962.55
363.06	897.01
363.27	903.15
363.48	913.39
363.68	845.81
363.89	919.54
364.10	935.92
364.31	1042.42
364.52	1480.68
364.72	1648.61
364.93	1935.33
365.14	2148.32
365.35	2156.51
365.56	2078.69
365.76	1892.32
365.97	1804.26
366.18	1806.31
366.39	1570.79
366.60	1398.76
366.80	1196.01
367.01	1077.23
367.22	1079.28
367.43	940.02
367.64	876.53
367.84	890.87
368.05	862.19
368.26	921.59
368.47	878.58
368.68	905.20
368.88	856.05
369.09	829.43
369.30	827.38
369.51	849.91
369.72	923.63
369.92	966.64
370.13	946.16
370.34	878.58
370.55	915.44
370.75	851.96
370.96	839.67
371.17	882.67
371.38	892.91
371.59	831.48
371.79	823.28
372.00	886.77
372.21	856.05
372.42	831.48
372.62	858.10
372.83	862.19
373.04	876.53
373.25	819.19
373.45	806.90
373.66	899.06
373.87	856.05
374.08	886.77
374.28	821.24
374.49	864.24
374.70	929.78
374.91	849.91
375.11	872.43
375.32	901.11
375.53	839.67
375.74	897.01
375.94	921.59
376.15	849.91
376.36	829.43
376.57	827.38
376.77	876.53
376.98	901.11
377.19	845.81
377.40	894.96
377.60	909.30
377.81	962.55
378.02	919.54
378.23	864.24
378.43	880.63
378.64	845.81
378.85	925.68
379.06	874.48
379.26	894.96
379.47	937.97
379.68	897.01
379.89	892.91
380.09	919.54
380.30	976.88
380.51	874.48
380.71	890.87
380.92	839.67
381.13	952.31
381.34	942.07
381.54	858.10
381.75	888.82
381.96	903.15
382.16	884.72
382.37	937.97
382.58	927.73
382.79	888.82
382.99	817.14
383.20	917.49
383.41	935.92
383.61	868.34
383.82	825.33
384.03	917.49
384.24	835.57
384.44	870.39
384.65	843.76
384.86	868.34
385.06	968.69
385.27	919.54
385.48	892.91
385.68	905.20
385.89	792.56
386.10	862.19
386.30	897.01
386.51	927.73
386.72	874.48
386.93	829.43
387.13	831.48
387.34	839.67
387.55	829.43
387.75	817.14
387.96	854.00
388.17	886.77
388.37	864.24
388.58	845.81
388.79	876.53
388.99	884.72
389.20	870.39
389.41	878.58
389.61	876.53
389.82	868.34
390.03	884.72
390.23	843.76
390.44	872.43
390.65	899.06
390.85	876.53
391.06	849.91
391.27	890.87
391.47	845.81
391.68	856.05
391.89	884.72
392.09	897.01
392.30	813.04
392.51	929.78
392.71	874.48
392.92	880.63
393.13	829.43
393.33	790.52
393.54	872.43
393.75	878.58
393.95	880.63
394.16	874.48
394.37	831.48
394.57	800.76
394.78	821.24
394.99	825.33
395.19	866.29
395.40	835.57
395.60	839.67
395.81	888.82
396.02	849.91
396.22	923.63
396.43	882.67
396.64	866.29
396.84	872.43
397.05	929.78
397.26	862.19
397.46	835.57
397.67	886.77
397.87	862.19
398.08	843.76
398.29	829.43
398.49	903.15
398.70	849.91
398.91	804.85
399.11	878.58
399.32	847.86
399.52	829.43
399.73	874.48
399.94	915.44
400.14	823.28
400.35	888.82
400.56	868.34
400.76	841.72
400.97	911.35
401.17	860.15
401.38	876.53
401.59	833.52
401.79	872.43
402.00	835.57
402.20	837.62
402.41	923.63
402.62	915.44
402.82	894.96
403.03	833.52
403.23	811.00
403.44	917.49
403.65	964.59
403.85	1171.44
404.06	2125.79
404.26	3438.54
404.47	4229.06
404.68	4972.47
404.88	5076.91
405.09	4376.51
405.29	3626.95
405.50	3147.73
405.70	2830.29
405.91	2394.08
406.12	2009.06
406.32	1683.43
406.53	1445.87
406.73	1169.39
406.94	1040.37
407.15	1034.22
407.35	1110.00
407.56	1097.71
407.76	1234.93
407.97	1128.43
408.17	1118.19
408.38	1120.24
408.59	1085.42
408.79	1007.60
409.00	993.26
409.20	976.88
409.41	942.07
409.61	927.73
409.82	950.26
410.02	907.25
410.23	897.01
410.44	854.00
410.64	909.30
410.85	970.74
411.05	968.69
411.26	944.11
411.46	940.02
411.67	937.97
411.87	909.30
412.08	911.35
412.29	1028.08
412.49	933.87
412.70	929.78
412.90	929.78
413.11	919.54
413.31	985.07
413.52	942.07
413.72	931.83
413.93	925.68
414.13	976.88
414.34	974.83
414.54	1019.89
414.75	954.35
414.96	974.83
415.16	995.31
415.37	905.20
415.57	1011.70
415.78	985.07
415.98	976.88
416.19	956.40
416.39	999.41
416.60	1044.46
416.80	933.87
417.01	1009.65
417.21	1009.65
417.42	899.06
417.62	1007.60
417.83	989.17
418.03	980.98
418.24	983.02
418.44	985.07
418.65	1021.94
418.85	991.22
419.06	1003.50
419.26	1017.84
419.47	978.93
419.67	1034.22
419.88	989.17
420.08	921.59
420.29	950.26
420.49	948.21
420.70	1062.90
420.90	1021.94
421.11	1019.89
421.31	960.50
421.52	962.55
421.72	964.59
421.93	1019.89
422.13	944.11
422.34	1021.94
422.54	1034.22
422.75	978.93
422.95	1032.18
423.16	978.93
423.36	993.26
423.57	1046.51
423.77	997.36
423.98	1011.70
424.18	1030.13
424.39	1058.80
424.59	1042.42
424.80	1009.65
425.00	1073.14
425.21	1087.47
425.41	1095.66
425.62	1038.32
425.82	1058.80
426.03	1048.56
426.23	1085.42
426.43	1173.49
426.64	1054.70
426.84	1005.55
427.05	1060.85
427.25	1099.76
427.46	1073.14
427.66	1120.24
427.87	1099.76
428.07	1093.62
428.28	1003.50
428.48	1058.80
428.68	962.55
428.89	1118.19
429.09	1062.90
429.30	1062.90
429.50	1153.01
429.71	974.83
429.91	1064.94
430.12	1069.04
430.32	1085.42
430.52	1093.62
430.73	1134.57
430.93	1034.22
431.14	1040.37
431.34	1062.90
431.55	1066.99
431.75	1091.57
431.96	1066.99
432.16	1048.56
432.36	1171.44
432.57	1114.10
432.77	1134.57
432.98	1120.24
433.18	1165.29
433.39	1128.43
433.59	1165.29
433.79	1208.30
434.00	1220.59
434.20	1370.09
434.41	1249.26
434.61	1318.89
434.81	1429.48
435.02	2195.42
435.22	4810.68
435.43	9664.36
435.63	13236.02
435.84	15384.34
436.04	16174.86
436.24	14210.86
436.45	11685.71
436.65	9774.95
436.86	8818.55
437.06	7165.84
437.26	5945.25
437.47	5025.72
437.67	3985.35
437.88	3133.39
438.08	2441.18
438.28	1884.13
438.49	1544.17
438.69	1402.86
438.90	1251.31
439.10	1273.84
439.30	1200.11
439.51	1288.17
439.71	1259.50
439.92	1273.84
440.12	1245.16
440.32	1236.97
440.53	1267.69
440.73	1171.44
440.93	1249.26
441.14	1120.24
441.34	1167.34
441.55	1196.01
441.75	1251.31
441.95	1202.16
442.16	1224.69
442.36	1241.07
442.56	1216.49
442.77	1249.26
442.97	1146.86
443.18	1167.34
443.38	1177.58
443.58	1224.69
443.79	1095.66
443.99	1107.95
444.19	1218.54
444.40	1329.13
444.60	1249.26
444.80	1187.82
445.01	1322.99
445.21	1163.25
445.42	1105.90
445.62	1210.35
445.82	1183.73
446.03	1239.02
446.23	1132.53
446.43	1249.26
446.64	1232.88
446.84	1196.01
447.04	1144.81
447.25	1206.25
447.45	1171.44
447.65	1193.97
447.86	1169.39
448.06	1222.64
448.26	1202.16
448.47	1171.44
448.67	1191.92
448.87	1251.31
449.08	1173.49
449.28	1208.30
449.48	1159.15
449.69	1136.62
449.89	1181.68
450.09	1206.25
450.30	1202.16
450.50	1212.40
450.70	1214.45
450.91	1214.45
451.11	1163.25
451.31	1198.06
451.52	1298.41
451.72	1224.69
451.92	1214.45
452.12	1251.31
452.33	1257.45
452.53	1226.73
452.73	1275.88
452.94	1204.21
453.14	1136.62
453.34	1269.74
453.55	1282.03
453.75	1277.93
453.95	1216.49
454.16	1222.64
454.36	1228.78
454.56	1202.16
454.76	1161.20
454.97	1167.34
455.17	1175.53
455.37	1216.49
455.58	1218.54
455.78	1222.64
455.98	1181.68
456.19	1220.59
456.39	1132.53
456.59	1216.49
456.79	1189.87
457.00	1165.29
457.20	1226.73
457.40	1163.25
457.61	1171.44
457.81	1189.87
458.01	1148.91
458.21	1220.59
458.42	1159.15
458.62	1155.05
458.82	1204.21
459.02	1167.34
459.23	1191.92
459.43	1226.73
459.63	1136.62
459.84	1187.82
460.04	1153.01
460.24	1101.81
460.44	1210.35
460.65	1153.01
460.85	1036.27
461.05	1177.58
461.25	1220.59
461.46	1189.87
461.66	1110.00
461.86	1069.04
462.06	1138.67
462.27	1144.81
462.47	1097.71
462.67	1128.43
462.87	1177.58
463.08	1091.57
463.28	1089.52
463.48	1134.57
463.68	1163.25
463.89	1284.08
464.09	1183.73
464.29	1148.91
464.49	1110.00
464.70	1181.68
464.90	1126.38
465.10	1214.45
465.30	1241.07
465.50	1167.34
465.71	1204.21
465.91	1189.87
466.11	1142.77
466.31	1200.11
466.52	1077.23
466.72	1157.10
466.92	1255.40
467.12	1150.96
467.33	1181.68
467.53	1153.01
467.73	1208.30
467.93	1163.25
468.13	1230.83
468.34	1167.34
468.54	1202.16
468.74	1134.57
468.94	1134.57
469.14	1144.81
469.35	1097.71
469.55	1058.80
469.75	1114.10
469.95	1095.66
470.15	1122.29
470.36	1116.14
470.56	1110.00
470.76	1118.19
470.96	1071.09
471.16	1163.25
471.37	1087.47
471.57	1091.57
471.77	1159.15
471.97	1128.43
472.17	1077.23
472.38	1214.45
472.58	1091.57
472.78	1142.77
472.98	1153.01
473.18	1136.62
473.39	1136.62
473.59	1126.38
473.79	1253.36
473.99	1159.15
474.19	1161.20
474.39	1175.53
474.60	1005.55
474.80	1042.42
475.00	1101.81
475.20	1116.14
475.40	1155.05
475.61	1105.90
475.81	1136.62
476.01	1214.45
476.21	1093.62
476.41	1165.29
476.61	1083.38
476.82	1159.15
477.02	1083.38
477.22	1095.66
477.42	1112.05
477.62	1069.04
477.82	1089.52
478.02	1099.76
478.23	1118.19
478.43	1091.57
478.63	1062.90
478.83	1124.33
479.03	1206.25
479.23	1140.72
479.44	1171.44
479.64	1200.11
479.84	1294.32
480.04	1189.87
480.24	1208.30
480.44	1226.73
480.64	1290.22
480.85	1263.60
481.05	1265.64
481.25	1271.79
481.45	1318.89
481.65	1339.37
481.85	1404.91
482.05	1433.58
482.25	1556.46
482.46	1578.98
482.66	1695.72
482.86	1865.70
483.06	1927.14
483.26	1871.84
483.46	2160.61
483.66	2265.05
483.86	2422.75
484.07	2572.25
484.27	2709.46
484.47	2779.09
484.67	3051.47
484.87	3170.26
485.07	3405.77
485.27	3661.77
485.47	4065.22
485.67	4136.90
485.88	4427.71
486.08	4614.07
486.28	4491.20
486.48	4933.56
486.68	4956.08
486.88	5312.43
487.08	5230.51
487.28	5509.04
487.48	5605.29
487.68	5543.85
487.89	5597.10
488.09	5515.18
488.29	5541.80
488.49	5550.00
488.69	5486.51
488.89	5539.76
489.09	5652.39
489.29	5492.65
489.49	5599.15
489.69	5455.79
489.89	5439.40
490.09	5375.92
490.30	5173.17
490.50	5222.32
490.70	5046.20
490.90	5054.39
491.10	4960.18
491.30	5113.78
491.50	4837.30
491.70	4779.96
491.90	4831.16
492.10	4786.10
492.30	4777.91
492.50	4497.34
492.70	4650.94
492.90	4456.38
493.11	4571.07
493.31	4343.74
493.51	4382.65
493.71	4190.14
493.91	4093.89
494.11	4198.34
494.31	4071.36
494.51	3948.48
494.71	3678.15
494.91	3819.46
495.11	3794.89
495.31	3514.31
495.51	3454.92
495.71	3481.55
495.91	3416.01
496.11	3407.82
496.31	3489.74
496.51	3305.42
496.71	3479.50
496.91	3401.68
497.11	3456.97
497.31	3319.76
497.52	3319.76
497.72	3321.81
497.92	3172.30
498.12	3213.26
498.32	2992.08
498.52	3065.81
498.72	2924.50
498.92	2836.44
499.12	2711.51
499.32	2719.70
499.52	2648.02
499.72	2564.06
499.92	2437.08
500.12	2406.36
500.32	2215.90
500.52	2183.13
500.72	2146.27
500.92	2002.91
501.12	1955.81
501.32	1843.17
501.52	1798.12
501.72	1814.50
501.92	1736.68
502.12	1720.29
502.32	1560.55
502.52	1603.56
502.72	1464.30
502.92	1535.98
503.12	1495.02
503.32	1449.96
503.52	1433.58
503.72	1413.10
503.92	1402.86
504.12	1306.60
504.32	1322.99
504.52	1370.09
504.72	1400.81
504.92	1376.24
505.12	1339.37
505.32	1290.22
505.52	1269.74
505.72	1363.95
505.92	1290.22
506.12	1232.88
506.32	1251.31
506.52	1208.30
506.72	1279.98
506.92	1239.02
507.12	1234.93
507.32	1271.79
507.51	1306.60
507.71	1263.60
507.91	1277.93
508.11	1376.24
508.31	1427.43
508.51	1343.47
508.71	1331.18
508.91	1357.80
509.11	1241.07
509.31	1396.71
509.51	1351.66
509.71	1402.86
509.91	1388.52
510.11	1341.42
510.31	1421.29
510.51	1300.46
510.71	1394.67
510.91	1363.95
511.11	1368.04
511.31	1439.72
511.51	1470.44
511.70	1429.48
511.90	1398.76
512.10	1462.25
512.30	1427.43
512.50	1445.87
512.70	1511.40
512.90	1421.29
513.10	1378.28
513.30	1435.63
513.50	1511.40
513.70	1447.91
513.90	1492.97
514.10	1482.73
514.30	1476.59
514.50	1482.73
514.69	1482.73
514.89	1495.02
515.09	1409.00
515.29	1454.06
515.49	1468.39
515.69	1464.30
515.89	1449.96
516.09	1492.97
516.29	1409.00
516.49	1478.63
516.69	1499.11
516.88	1435.63
517.08	1452.01
517.28	1454.06
517.48	1454.06
517.68	1435.63
517.88	1470.44
518.08	1417.19
518.28	1406.95
518.48	1449.96
518.68	1421.29
518.87	1400.81
519.07	1351.66
519.27	1415.15
519.47	1386.47
519.67	1409.00
519.87	1357.80
520.07	1363.95
520.27	1310.70
520.47	1355.76
520.66	1363.95
520.86	1333.23
521.06	1331.18
521.26	1443.82
521.46	1374.19
521.66	1331.18
521.86	1294.32
522.06	1230.83
522.25	1286.12
522.45	1327.08
522.65	1226.73
522.85	1296.36
523.05	1273.84
523.25	1329.13
523.45	1333.23
523.65	1214.45
523.84	1392.62
524.04	1314.80
524.24	1259.50
524.44	1265.64
524.64	1261.55
524.84	1230.83
525.04	1216.49
525.23	1282.03
525.43	1228.78
525.63	1187.82
525.83	1171.44
526.03	1177.58
526.23	1241.07
526.42	1155.05
526.62	1208.30
526.82	1132.53
527.02	1247.21
527.22	1198.06
527.42	1271.79
527.61	1183.73
527.81	1265.64
528.01	1290.22
528.21	1263.60
528.41	1239.02
528.61	1298.41
528.80	1202.16
529.00	1267.69
529.20	1134.57
529.40	1216.49
529.60	1196.01
529.80	1232.88
529.99	1146.86
530.19	1214.45
530.39	1376.24
530.59	1196.01
530.79	1259.50
530.98	1257.45
531.18	1339.37
531.38	1146.86
531.58	1155.05
531.78	1220.59
531.98	1255.40
532.17	1191.92
532.37	1353.71
532.57	1359.85
532.77	1359.85
532.97	1529.83
533.16	1732.58
533.36	1984.48
533.56	2015.20
533.76	2095.07
533.96	2082.78
534.15	2066.40
534.35	1916.90
534.55	1890.28
534.75	1834.98
534.94	1765.35
535.14	1789.92
535.34	1708.01
535.54	1679.33
535.74	1791.97
535.93	1748.97
536.13	1699.81
536.33	1873.89
536.53	1806.31
536.72	1746.92
536.92	1890.28
537.12	1941.47
537.32	2101.22
537.52	2312.16
537.71	2506.71
537.91	2865.11
538.11	2944.98
538.31	3385.29
538.50	3647.43
538.70	3880.90
538.90	4184.00
539.10	4366.27
539.29	4515.77
539.49	4896.69
539.69	5015.48
539.89	5613.48
540.08	6188.96
540.28	6449.05
540.48	6934.42
540.68	7346.06
540.87	7944.07
541.07	8886.14
541.27	9930.60
541.47	11315.03
541.66	13440.82
541.86	15888.14
542.06	18317.03
542.26	20547.27
542.45	22875.81
542.65	24559.24
542.85	25728.63
543.05	26652.27
543.24	28075.60
543.44	29001.29
543.64	29716.03
543.83	30234.16
544.03	30223.92
544.23	30862.89
544.43	30463.54
544.62	29744.70
544.82	29142.60
545.02	28530.25
545.22	27446.88
545.41	27111.01
545.61	28722.76
545.81	31868.44
546.00	34149.88
546.20	34651.63
546.40	34629.10
546.60	31204.90
546.79	26773.10
546.99	23678.61
547.19	21413.56
547.38	19377.88
547.58	17379.06
547.78	15666.96
547.97	14399.27
548.17	13270.84
548.37	12220.23
548.57	11589.46
548.76	10946.39
548.96	10745.69
549.16	10059.62
549.35	10022.76
549.55	9709.42
549.75	9398.13
549.94	9103.22
550.14	8814.46
550.34	8134.53
550.53	8054.66
550.73	7714.70
550.93	7774.09
551.12	7366.54
551.32	7370.64
551.52	7319.44
551.71	7073.68
551.91	7014.29
552.11	7106.45
552.30	6950.81
552.50	6834.07
552.70	6649.75
552.89	6467.49
553.09	6223.78
553.29	6133.67
553.48	5744.55
553.68	5595.05
553.88	5238.70
554.07	5033.91
554.27	4722.62
554.47	4419.52
554.66	4063.17
554.86	3594.19
555.06	3444.68
555.25	3160.02
555.45	2916.31
555.65	2731.99
555.84	2473.95
556.04	2410.46
556.24	2283.49
556.43	2150.37
556.63	2103.26
556.82	1994.72
557.02	1808.36
557.22	1777.64
557.41	1789.92
557.61	1710.05
557.81	1650.66
558.00	1589.22
558.20	1535.98
558.39	1525.74
558.59	1513.45
558.79	1538.02
558.98	1390.57
559.18	1476.59
559.38	1445.87
559.57	1390.57
559.77	1353.71
559.96	1374.19
560.16	1325.04
560.36	1314.80
560.55	1337.32
560.75	1249.26
560.94	1320.94
561.14	1284.08
561.34	1239.02
561.53	1318.89
561.73	1269.74
561.93	1337.32
562.12	1314.80
562.32	1306.60
562.51	1347.56
562.71	1253.36
562.91	1329.13
563.10	1273.84
563.30	1357.80
563.49	1290.22
563.69	1288.17
563.88	1230.83
564.08	1222.64
564.28	1236.97
564.47	1249.26
564.67	1181.68
564.86	1185.77
565.06	1150.96
565.26	1257.45
565.45	1196.01
565.65	1232.88
565.84	1140.72
566.04	1161.20
566.23	1146.86
566.43	1146.86
566.63	1118.19
566.82	1093.62
567.02	1116.14
567.21	1179.63
567.41	1081.33
567.60	1060.85
567.80	1134.57
567.99	1171.44
568.19	1114.10
568.39	1239.02
568.58	1247.21
568.78	1093.62
568.97	1134.57
569.17	1130.48
569.36	1157.10
569.56	1103.86
569.75	1128.43
569.95	1183.73
570.15	1099.76
570.34	1150.96
570.54	1148.91
570.73	1021.94
570.93	1138.67
571.12	1122.29
571.32	1134.57
571.51	1064.94
571.71	1116.14
571.90	1153.01
572.10	1058.80
572.29	1093.62
572.49	1175.53
572.68	1155.05
572.88	1222.64
573.08	1130.48
573.27	1259.50
573.47	1279.98
573.66	1241.07
573.86	1169.39
574.05	1306.60
574.25	1294.32
574.44	1355.76
574.64	1226.73
574.83	1335.28
575.03	1347.56
575.22	1376.24
575.42	1361.90
575.61	1435.63
575.81	1353.71
576.00	1386.47
576.20	1486.83
576.39	1662.95
576.59	2090.98
576.78	2707.41
576.98	3160.02
577.17	3469.26
577.37	3631.05
577.56	3319.76
577.76	2826.20
577.95	2719.70
578.15	2611.16
578.34	2680.79
578.54	2691.03
578.73	3059.67
578.93	3393.48
579.12	3907.52
579.32	4085.70
579.51	4294.59
579.71	4177.86
579.90	4198.34
580.09	4603.83
580.29	5216.18
580.48	5443.50
580.68	5455.79
580.87	5359.53
581.07	5210.03
581.26	5027.76
581.46	5046.20
581.65	4876.21
581.85	4992.95
582.04	5279.66
582.24	5271.47
582.43	5345.20
582.62	5263.28
582.82	5492.65
583.01	5758.89
583.21	5932.97
583.40	6320.03
583.60	6363.04
583.79	6428.57
583.99	6567.84
584.18	6707.10
584.38	6672.28
584.57	6543.26
584.76	6561.69
584.96	6487.96
585.15	6248.35
585.35	6326.18
585.54	5941.16
585.74	6010.79
585.93	5707.69
586.12	5564.33
586.32	5494.70
586.51	5601.19
586.71	5801.90
586.90	6506.40
587.10	7262.10
587.29	8212.35
587.48	8925.05
587.68	9529.20
587.87	9496.43
588.07	9234.29
588.26	8996.73
588.45	8537.98
588.65	8052.61
588.84	7726.99
589.04	7208.85
589.23	6729.63
589.43	6432.67
589.62	6295.46
589.81	6123.43
590.01	5810.09
590.20	5670.83
590.40	5490.60
590.59	5390.25
590.78	5050.29
590.98	5025.72
591.17	4822.97
591.37	4825.01
591.56	4650.94
591.75	4597.69
591.95	4632.51
592.14	4679.61
592.33	4822.97
592.53	5144.50
592.72	5451.69
592.92	5939.11
593.11	6293.41
593.30	6672.28
593.50	6717.34
593.69	6670.23
593.88	6553.50
594.08	6145.95
594.27	5752.74
594.47	5371.82
594.66	4982.71
594.85	4650.94
595.05	4284.35
595.24	4143.04
595.43	3801.03
595.63	3637.19
595.82	3553.23
596.01	3330.00
596.21	3375.05
596.40	3043.28
596.60	3057.62
596.79	2981.84
596.98	2953.17
597.18	2768.85
597.37	2805.72
597.56	2662.36
597.76	2691.03
597.95	2668.50
598.14	2742.23
598.34	2818.00
598.53	3063.76
598.72	3104.72
598.92	3223.50
599.11	3434.44
599.30	3794.89
599.50	3948.48
599.69	4265.92
599.88	4270.01
600.08	4321.21
600.27	4409.28
600.46	4276.16
600.66	4143.04
600.85	3858.37
601.04	3704.78
601.24	3596.23
601.43	3391.44
601.62	3258.32
601.82	3090.38
602.01	2828.24
602.20	2729.94
602.40	2648.02
602.59	2564.06
602.78	2377.69
602.97	2324.44
603.17	2201.57
603.36	2117.60
603.55	2336.73
603.75	2023.39
603.94	2060.26
604.13	2009.06
604.33	2045.92
604.52	2086.88
604.71	2164.70
604.90	2009.06
605.10	2113.50
605.29	2144.22
605.48	2162.66
605.68	2217.95
605.87	2277.34
606.06	2238.43
606.25	2183.13
606.45	2443.23
606.64	2318.30
606.83	2432.99
607.03	2463.71
607.22	2609.11
607.41	2686.94
607.60	2895.83
607.80	2842.58
607.99	3061.71
608.18	3223.50
608.37	3483.59
608.57	3637.19
608.76	3983.30
608.95	4157.38
609.15	4513.72
609.34	5001.14
609.53	5480.36
609.72	6238.11
609.92	6999.96
610.11	8566.65
610.30	10096.49
610.49	12629.82
610.69	16692.99
610.88	23088.80
611.07	30316.08
611.26	38213.05
611.46	45100.37
611.65	49048.85
611.84	49364.24
612.03	48117.03
612.23	45180.24
612.42	42007.94
612.61	39167.40
612.80	36980.17
612.99	34416.11
613.19	32005.66
613.38	30260.79
613.57	27999.83
613.76	25968.24
613.96	24702.60
614.15	23336.60
614.34	21575.35
614.53	20602.57
614.72	19494.61
614.92	18538.21
615.11	17133.31
615.30	16414.47
615.49	15240.98
615.69	13748.01
615.88	13080.38
616.07	12074.82
616.26	11257.68
616.45	10469.22
616.65	9586.54
616.84	9095.03
617.03	8525.69
617.22	8185.73
617.41	7546.76
617.61	7253.91
617.80	6750.10
617.99	6487.96
618.18	6162.34
618.37	5906.34
618.57	5578.67
618.76	5670.83
618.95	5418.93
619.14	5629.87
619.33	5423.02
619.53	5328.81
619.72	5347.25
619.91	5431.21
620.10	5582.76
620.29	5582.76
620.48	5754.79
620.68	6002.60
620.87	5978.02
621.06	5867.43
621.25	5865.38
621.44	5832.62
621.63	5877.67
621.83	5822.38
622.02	5724.07
622.21	5506.99
622.40	5623.72
622.59	5506.99
622.78	5451.69
622.98	5414.83
623.17	5337.01
623.36	5029.81
623.55	5224.37
623.74	5113.78
623.93	5113.78
624.12	5105.59
624.32	4954.04
624.51	4970.42
624.70	4929.46
624.89	4865.97
625.08	4769.72
625.27	4796.34
625.46	4822.97
625.66	4616.12
625.85	4491.20
626.04	4558.78
626.23	4265.92
626.42	4323.26
626.61	4261.82
626.80	4216.77
627.00	4042.69
627.19	4048.83
627.38	4128.70
627.57	4061.12
627.76	4104.13
627.95	4173.76
628.14	4044.74
628.33	4118.47
628.53	4216.77
628.72	4034.50
628.91	4149.18
629.10	3950.53
629.29	4052.93
629.48	4239.30
629.67	4251.58
629.86	4376.51
630.05	4609.98
630.24	4634.55
630.44	5097.39
630.63	5537.71
630.82	6180.77
631.01	6684.57
631.20	7376.78
631.39	7606.16
631.58	7821.19
631.77	7647.12
631.96	7100.31
632.15	6459.29
632.35	6141.86
632.54	5572.52
632.73	5085.11
632.92	4745.14
633.11	4214.72
633.30	3885.00
633.49	3622.86
633.68	3221.45
633.87	3080.14
634.06	2830.29
634.25	2562.01
634.44	2500.57
634.63	2273.25
634.83	2121.70
635.02	2043.87
635.21	1892.32
635.40	1890.28
635.59	1828.84
635.78	1697.77
635.97	1667.05
636.16	1650.66
636.35	1613.80
636.54	1624.04
636.73	1560.55
636.92	1546.22
637.11	1480.68
637.30	1538.02
637.49	1572.84
637.68	1554.41
637.87	1472.49
638.06	1452.01
638.25	1437.67
638.45	1437.67
638.64	1398.76
638.83	1415.15
639.02	1394.67
639.21	1421.29
639.40	1382.38
639.59	1329.13
639.78	1374.19
639.97	1353.71
640.16	1271.79
640.35	1177.58
640.54	1306.60
640.73	1292.27
640.92	1296.36
641.11	1359.85
641.30	1288.17
641.49	1318.89
641.68	1234.93
641.87	1404.91
642.06	1417.19
642.25	1363.95
642.44	1355.76
642.63	1404.91
642.82	1361.90
643.01	1314.80
643.20	1370.09
643.39	1376.24
643.58	1306.60
643.77	1366.00
643.96	1337.32
644.15	1353.71
644.34	1396.71
644.53	1394.67
644.72	1384.43
644.91	1329.13
645.10	1478.63
645.29	1441.77
645.48	1462.25
645.67	1435.63
645.86	1511.40
646.05	1443.82
646.24	1378.28
646.43	1363.95
646.62	1392.62
646.81	1378.28
647.00	1413.10
647.19	1411.05
647.38	1439.72
647.57	1368.04
647.76	1345.52
647.95	1421.29
648.14	1314.80
648.33	1378.28
648.51	1370.09
648.70	1279.98
648.89	1294.32
649.08	1388.52
649.27	1390.57
649.46	1441.77
649.65	1437.67
649.84	1560.55
650.03	1830.88
650.22	1923.04
650.41	2109.41
650.60	2273.25
650.79	2494.43
650.98	2557.91
651.17	2607.06
651.36	2514.91
651.55	2469.85
651.74	2285.53
651.93	2269.15
652.11	2226.14
652.30	2099.17
652.49	2047.97
652.68	1947.62
652.87	1986.53
653.06	1824.74
653.25	1894.37
653.44	1851.36
653.63	1867.75
653.82	1812.45
654.01	1787.88
654.20	1626.09
654.39	1624.04
654.57	1613.80
654.76	1558.50
654.95	1525.74
655.14	1388.52
655.33	1415.15
655.52	1390.57
655.71	1374.19
655.90	1331.18
656.09	1245.16
656.28	1228.78
656.46	1298.41
656.65	1255.40
656.84	1193.97
657.03	1310.70
657.22	1216.49
657.41	1230.83
657.60	1298.41
657.79	1212.40
657.98	1292.27
658.16	1374.19
658.35	1288.17
658.54	1394.67
658.73	1290.22
658.92	1282.03
659.11	1228.78
659.30	1206.25
659.49	1173.49
659.68	1185.77
659.86	1167.34
660.05	1142.77
660.24	1107.95
660.43	1128.43
660.62	1148.91
660.81	1075.18
661.00	1114.10
661.18	1101.81
661.37	1214.45
661.56	1155.05
661.75	1208.30
661.94	1206.25
662.13	1376.24
662.32	1484.78
662.50	1665.00
662.69	1849.32
662.88	1869.80
663.07	1902.56
663.26	1863.65
663.45	1763.30
663.64	1730.53
663.82	1771.49
664.01	1605.61
664.20	1564.65
664.39	1619.94
664.58	1548.26
664.77	1486.83
664.95	1474.54
665.14	1392.62
665.33	1322.99
665.52	1282.03
665.71	1400.81
665.89	1361.90
666.08	1263.60
666.27	1210.35
666.46	1288.17
666.65	1269.74
666.84	1228.78
667.02	1353.71
667.21	1222.64
667.40	1236.97
667.59	1310.70
667.78	1284.08
667.96	1251.31
668.15	1308.65
668.34	1318.89
668.53	1290.22
668.72	1349.61
668.90	1304.56
669.09	1302.51
669.28	1228.78
669.47	1286.12
669.66	1327.08
669.84	1224.69
670.03	1234.93
670.22	1232.88
670.41	1171.44
670.60	1200.11
670.78	1224.69
670.97	1212.40
671.16	1157.10
671.35	1239.02
671.53	1146.86
671.72	1214.45
671.91	1163.25
672.10	1153.01
672.29	1163.25
672.47	1085.42
672.66	1189.87
672.85	1171.44
673.04	1198.06
673.22	1171.44
673.41	1140.72
673.60	1132.53
673.79	1185.77
673.97	1085.42
674.16	1153.01
674.35	1155.05
674.54	1083.38
674.72	1097.71
674.91	1058.80
675.10	1153.01
675.29	1060.85
675.47	1118.19
675.66	1142.77
675.85	1107.95
676.04	1101.81
676.22	1120.24
676.41	983.02
676.60	1075.18
676.79	1128.43
676.97	1132.53
677.16	1058.80
677.35	1081.33
677.54	1138.67
677.72	1048.56
677.91	1126.38
678.10	1042.42
678.28	1191.92
678.47	1150.96
678.66	1153.01
678.85	1193.97
679.03	1146.86
679.22	1173.49
679.41	1208.30
679.59	1128.43
679.78	1181.68
679.97	1069.04
680.16	1183.73
680.34	1185.77
680.53	1136.62
680.72	1185.77
680.90	1163.25
681.09	1140.72
681.28	1179.63
681.46	1134.57
681.65	1101.81
681.84	1091.57
682.03	1112.05
682.21	1159.15
682.40	1193.97
682.59	1179.63
682.77	1183.73
682.96	1155.05
683.15	1105.90
683.33	1110.00
683.52	1232.88
683.71	1107.95
683.89	1060.85
684.08	1101.81
684.27	1062.90
684.45	1122.29
684.64	1169.39
684.83	1075.18
685.01	1030.13
685.20	1042.42
685.39	1038.32
685.57	1028.08
685.76	1062.90
685.95	1050.61
686.13	1023.98
686.32	1058.80
686.51	1122.29
686.69	1091.57
686.88	1124.33
687.07	1251.31
687.25	1402.86
687.44	1388.52
687.63	1507.30
687.81	1521.64
688.00	1544.17
688.19	1591.27
688.37	1656.81
688.56	1671.14
688.74	1566.70
688.93	1556.46
689.12	1429.48
689.30	1540.07
689.49	1404.91
689.68	1370.09
689.86	1372.14
690.05	1314.80
690.24	1236.97
690.42	1236.97
690.61	1220.59
690.79	1167.34
690.98	1142.77
691.17	1132.53
691.35	1167.34
691.54	1093.62
691.72	1114.10
691.91	989.17
692.10	1050.61
692.28	1017.84
692.47	1026.03
692.65	1081.33
692.84	995.31
693.03	1148.91
693.21	1013.74
693.40	1173.49
693.58	1275.88
693.77	1292.27
693.96	1404.91
694.14	1464.30
694.33	1454.06
694.51	1386.47
694.70	1304.56
694.89	1298.41
695.07	1284.08
695.26	1214.45
695.44	1239.02
695.63	1208.30
695.82	1150.96
696.00	1099.76
696.19	1103.86
696.37	1034.22
696.56	1056.75
696.74	1015.79
696.93	1069.04
697.12	1054.70
697.30	983.02
697.49	972.79
697.67	919.54
697.86	976.88
698.04	923.63
698.23	888.82
698.41	897.01
698.60	937.97
698.79	948.21
698.97	983.02
699.16	940.02
699.34	944.11
699.53	907.25
699.71	964.59
699.90	929.78
700.08	954.35
700.27	944.11
700.45	907.25
700.64	927.73
700.83	864.24
701.01	958.45
701.20	888.82
701.38	948.21
701.57	940.02
701.75	968.69
701.94	1058.80
702.12	917.49
702.31	940.02
702.49	942.07
702.68	966.64
702.86	991.22
703.05	950.26
703.23	1005.55
703.42	991.22
703.60	993.26
703.79	1011.70
703.97	1071.09
704.16	993.26
704.34	1085.42
704.53	1206.25
704.71	1130.48
704.90	1165.29
705.08	1179.63
705.27	1132.53
705.45	1165.29
705.64	1245.16
705.82	1368.04
706.01	1417.19
706.19	1495.02
706.38	1578.98
706.56	1779.68
706.75	1947.62
706.93	2172.89
707.12	2287.58
707.30	2451.42
707.49	2510.81
707.67	2559.96
707.86	2543.58
708.04	2342.88
708.23	2445.27
708.41	2310.11
708.60	2334.68
708.78	2467.80
708.97	2627.54
709.15	2781.14
709.33	3074.00
709.52	3192.78
709.70	3074.00
709.89	2967.51
710.07	2748.37
710.26	2535.39
710.44	2353.12
710.63	2140.13
710.81	1998.82
711.00	1953.76
711.18	1783.78
711.36	1898.47
711.55	1785.83
711.73	1812.45
711.92	1912.80
712.10	1957.86
712.29	2248.67
712.47	2213.85
712.66	2435.03
712.84	2467.80
713.02	2566.10
713.21	2420.70
713.39	2238.43
713.58	2240.48
713.76	1976.29
713.95	1894.37
714.13	1742.82
714.31	1654.76
714.50	1574.89
714.68	1482.73
714.87	1468.39
715.05	1363.95
715.24	1388.52
715.42	1187.82
715.60	1245.16
715.79	1122.29
715.97	1124.33
716.16	1036.27
716.34	1005.55
716.52	978.93
716.71	944.11
716.89	968.69
717.08	913.39
717.26	897.01
717.44	894.96
717.63	954.35
717.81	899.06
718.00	919.54
718.18	962.55
718.36	862.19
718.55	921.59
718.73	903.15
718.91	929.78
719.10	933.87
719.28	878.58
719.47	825.33
719.65	903.15
719.83	860.15
720.02	927.73
720.20	956.40
720.38	917.49
720.57	915.44
720.75	878.58
720.94	915.44
721.12	888.82
721.30	870.39
721.49	958.45
721.67	905.20
721.85	966.64
722.04	909.30
722.22	872.43
722.40	944.11
722.59	880.63
722.77	911.35
722.95	880.63
723.14	870.39
723.32	882.67
723.50	825.33
723.69	946.16
723.87	888.82
724.05	948.21
724.24	866.29
724.42	864.24
724.60	870.39
724.79	919.54
724.97	976.88
725.15	937.97
725.34	868.34
725.52	878.58
725.70	880.63
725.89	851.96
726.07	860.15
726.25	878.58
726.44	880.63
726.62	872.43
726.80	894.96
726.99	858.10
727.17	917.49
727.35	927.73
727.54	892.91
727.72	868.34
727.90	913.39
728.08	899.06
728.27	937.97
728.45	860.15
728.63	827.38
728.82	980.98
729.00	917.49
729.18	884.72
729.37	854.00
729.55	886.77
729.73	794.61
729.91	931.83
730.10	878.58
730.28	839.67
730.46	888.82
730.65	911.35
730.83	851.96
731.01	913.39
731.19	849.91
731.38	929.78
731.56	806.90
731.74	866.29
731.92	880.63
732.11	909.30
732.29	917.49
732.47	870.39
732.66	864.24
732.84	899.06
733.02	880.63
733.20	880.63
733.39	937.97
733.57	878.58
733.75	944.11
733.93	888.82
734.12	897.01
734.30	886.77
734.48	892.91
734.66	919.54
734.85	925.68
735.03	954.35
735.21	899.06
735.39	845.81
735.57	925.68
735.76	821.24
735.94	888.82
736.12	980.98
736.30	892.91
736.49	884.72
736.67	870.39
736.85	829.43
737.03	929.78
737.22	960.50
737.40	831.48
737.58	917.49
737.76	860.15
737.94	798.71
738.13	954.35
738.31	833.52
738.49	829.43
738.67	903.15
738.85	886.77
739.04	890.87
739.22	952.31
739.40	892.91
739.58	862.19
739.76	890.87
739.95	907.25
740.13	956.40
740.31	847.86
740.49	819.19
740.67	884.72
740.86	886.77
741.04	847.86
741.22	854.00
741.40	940.02
741.58	782.32
741.77	876.53
741.95	958.45
742.13	884.72
742.31	862.19
742.49	843.76
742.67	933.87
742.86	917.49
743.04	980.98
743.22	970.74
743.40	919.54
743.58	888.82
743.76	892.91
743.95	952.31
744.13	905.20
744.31	925.68
744.49	819.19
744.67	864.24
744.85	911.35
745.04	995.31
745.22	841.72
745.40	927.73
745.58	841.72
745.76	798.71
745.94	868.34
746.12	851.96
746.31	870.39
746.49	931.83
746.67	933.87
746.85	876.53
747.03	872.43
747.21	847.86
747.39	911.35
747.58	991.22
747.76	854.00
747.94	862.19
748.12	913.39
748.30	907.25
748.48	913.39
748.66	897.01
748.84	860.15
749.02	901.11
749.21	878.58
749.39	823.28
749.57	847.86
749.75	874.48
749.93	782.32
750.11	831.48
750.29	839.67
750.47	874.48
750.65	915.44
750.84	892.91
751.02	856.05
751.20	966.64
751.38	948.21
751.56	870.39
751.74	888.82
751.92	884.72
752.10	915.44
752.28	876.53
752.46	944.11
752.64	886.77
752.83	954.35
753.01	956.40
753.19	962.55
753.37	856.05
753.55	878.58
753.73	851.96
753.91	872.43
754.09	878.58
754.27	917.49
754.45	872.43
754.63	854.00
754.81	767.99
754.99	813.04
755.17	878.58
755.36	847.86
755.54	854.00
755.72	862.19
755.90	847.86
756.08	849.91
756.26	778.23
756.44	808.95
756.62	827.38
756.80	860.15
756.98	837.62
757.16	897.01
757.34	868.34
757.52	854.00
757.70	849.91
757.88	899.06
758.06	845.81
758.24	868.34
758.42	880.63
758.60	856.05
758.78	829.43
758.96	854.00
759.14	823.28
759.32	894.96
759.50	872.43
759.68	872.43
759.86	796.66
760.04	843.76
760.23	903.15
760.41	858.10
760.59	860.15
760.77	851.96
760.95	821.24
761.13	897.01
761.31	903.15
761.49	841.72
761.67	888.82
761.85	919.54
762.03	839.67
762.21	825.33
762.39	792.56
762.57	839.67
762.75	860.15
762.93	880.63
763.11	913.39
763.29	903.15
763.46	841.72
763.64	919.54
763.82	956.40
764.00	952.31
764.18	944.11
764.36	976.88
764.54	942.07
764.72	1009.65
764.90	1060.85
765.08	878.58
765.26	880.63
765.44	860.15
765.62	800.76
765.80	905.20
765.98	821.24
766.16	841.72
766.34	872.43
766.52	962.55
766.70	880.63
766.88	884.72
767.06	894.96
767.24	821.24
767.42	796.66
767.60	849.91
767.78	819.19
767.96	821.24
768.14	767.99
768.31	872.43
768.49	854.00
768.67	884.72
768.85	866.29
769.03	876.53
769.21	823.28
769.39	854.00
769.57	841.72
769.75	843.76
769.93	823.28
770.11	888.82
770.29	897.01
770.47	913.39
770.65	843.76
770.82	839.67
771.00	815.09
771.18	831.48
771.36	808.95
771.54	847.86
771.72	849.91
771.90	827.38
772.08	909.30
772.26	817.14
772.44	847.86
772.62	864.24
772.79	888.82
772.97	927.73
773.15	876.53
773.33	933.87
773.51	903.15
773.69	923.63
773.87	931.83
774.05	911.35
774.23	864.24
774.40	856.05
774.58	905.20
774.76	819.19
774.94	946.16
775.12	882.67
775.30	841.72
775.48	839.67
775.66	829.43
775.83	958.45
776.01	933.87
776.19	835.57
776.37	864.24
776.55	931.83
776.73	813.04
776.91	862.19
777.09	894.96
777.26	841.72
777.44	882.67
777.62	811.00
777.80	849.91
777.98	817.14
778.16	843.76
778.33	923.63
778.51	774.13
778.69	813.04
778.87	827.38
779.05	862.19
779.23	882.67
779.41	888.82
779.58	862.19
779.76	780.28
779.94	856.05
780.12	876.53
780.30	819.19
780.48	890.87
780.65	833.52
780.83	880.63
781.01	897.01
781.19	845.81
781.37	872.43
781.54	808.95
781.72	884.72
781.90	866.29
782.08	862.19
782.26	829.43
782.44	868.34
782.61	831.48
782.79	802.80
782.97	823.28
783.15	858.10
783.33	856.05
783.50	839.67
783.68	839.67
783.86	931.83
784.04	917.49
784.21	866.29
784.39	802.80
784.57	751.60
784.75	905.20
784.93	882.67
785.10	843.76
785.28	880.63
785.46	860.15
785.64	831.48
785.82	757.75
785.99	804.85
786.17	796.66
786.35	833.52
786.53	851.96
786.70	890.87
786.88	870.39
787.06	837.62
787.24	927.73
787.41	872.43
787.59	888.82
787.77	815.09
787.95	849.91
788.12	856.05
788.30	880.63
788.48	913.39
788.66	862.19
788.83	794.61
789.01	894.96
789.19	843.76
789.37	757.75
789.54	901.11
789.72	841.72
789.90	788.47
790.08	819.19
790.25	888.82
790.43	860.15
790.61	870.39
790.79	854.00
790.96	864.24
791.14	854.00
791.32	796.66
791.50	862.19
791.67	864.24
791.85	843.76
792.03	856.05
792.20	864.24
792.38	835.57
792.56	845.81
792.74	821.24
792.91	845.81
793.09	843.76
793.27	835.57
793.44	829.43
793.62	847.86
793.80	876.53
793.97	847.86
794.15	837.62
794.33	796.66
794.51	862.19
794.68	858.10
794.86	884.72
795.04	856.05
795.21	864.24
795.39	870.39
795.57	847.86
795.74	839.67
795.92	823.28
796.10	927.73
796.27	897.01
796.45	790.52
796.63	870.39
796.80	866.29
796.98	884.72
797.16	921.59
797.33	864.24
797.51	854.00
797.69	802.80
797.86	888.82
798.04	884.72
798.22	823.28
798.39	835.57
798.57	870.39
798.75	872.43
798.92	839.67
799.10	897.01
799.28	858.10
799.45	849.91
799.63	856.05
799.81	892.91
799.98	876.53
800.16	802.80
800.33	903.15
800.51	763.89
800.69	894.96
800.86	874.48
801.04	894.96
801.22	856.05
801.39	831.48
801.57	880.63
801.75	937.97
801.92	952.31
802.10	894.96
802.27	878.58
802.45	862.19
802.63	911.35
802.80	915.44
802.98	800.76
803.15	804.85
803.33	839.67
803.51	862.19
803.68	854.00
803.86	911.35
804.03	823.28
804.21	821.24
804.39	786.42
804.56	870.39
804.74	798.71
804.91	894.96
805.09	888.82
805.27	839.67
805.44	858.10
805.62	1011.70
805.79	864.24
805.97	833.52
806.15	868.34
806.32	864.24
806.50	841.72
806.67	821.24
806.85	870.39
807.02	815.09
807.20	884.72
807.38	829.43
807.55	878.58
807.73	888.82
807.90	843.76
808.08	815.09
808.25	897.01
808.43	876.53
808.61	792.56
808.78	897.01
808.96	835.57
809.13	858.10
809.31	839.67
809.48	1032.18
809.66	804.85
809.83	878.58
810.01	923.63
810.18	823.28
810.36	909.30
810.54	888.82
810.71	890.87
810.89	911.35
811.06	909.30
811.24	851.96
811.41	894.96
811.59	860.15
811.76	901.11
811.94	923.63
812.11	909.30
812.29	884.72
812.46	882.67
812.64	1021.94
812.81	862.19
812.99	823.28
813.16	866.29
813.34	892.91
813.51	925.68
813.69	862.19
813.86	884.72
814.04	872.43
814.21	960.50
814.39	872.43
814.56	833.52
814.74	868.34
814.91	749.56
815.09	880.63
815.26	886.77
815.44	929.78
815.61	923.63
815.79	847.86
815.96	751.60
816.14	819.19
816.31	802.80
816.49	823.28
816.66	757.75
816.84	911.35
817.01	825.33
817.19	847.86
817.36	894.96
817.54	849.91
817.71	831.48
817.89	894.96
818.06	948.21
818.24	878.58
818.41	835.57
818.58	880.63
818.76	851.96
818.93	827.38
819.11	808.95
819.28	856.05
819.46	919.54
819.63	862.19
819.81	950.26
819.98	882.67
820.15	868.34
820.33	905.20
820.50	831.48
820.68	813.04
820.85	892.91
821.03	821.24
821.20	837.62
821.38	882.67
821.55	905.20
821.72	843.76
821.90	823.28
822.07	931.83
822.25	811.00
822.42	931.83
822.60	864.24
822.77	864.24
822.94	802.80
823.12	847.86
823.29	847.86
823.47	868.34
823.64	858.10
823.81	878.58
823.99	835.57
824.16	868.34
824.34	845.81
824.51	849.91
824.68	823.28
824.86	819.19
825.03	886.77
825.21	819.19
825.38	901.11
825.55	892.91
825.73	833.52
825.90	890.87
826.08	860.15
826.25	905.20
826.42	884.72
826.60	866.29
826.77	794.61
826.94	894.96
827.12	847.86
827.29	839.67
827.47	849.91
827.64	843.76
827.81	880.63
827.99	821.24
828.16	845.81
828.33	854.00
828.51	815.09
828.68	827.38
828.85	909.30
829.03	831.48
829.20	854.00
829.37	905.20
829.55	862.19
829.72	899.06
829.90	815.09
830.07	856.05
830.24	876.53
830.42	862.19
830.59	874.48
830.76	825.33
830.94	788.47
831.11	874.48
831.28	888.82
831.46	864.24
831.63	876.53
831.80	915.44
831.98	851.96
832.15	884.72
832.32	815.09
832.49	880.63
832.67	774.13
832.84	821.24
833.01	890.87
833.19	839.67
833.36	878.58
833.53	802.80
833.71	866.29
833.88	866.29
834.05	821.24
834.23	806.90
834.40	819.19
834.57	835.57
834.74	882.67
834.92	870.39
835.09	888.82
835.26	813.04
835.44	856.05
835.61	882.67
835.78	921.59
835.96	862.19
836.13	866.29
836.30	892.91
836.47	854.00
836.65	962.55
836.82	864.24
836.99	882.67
837.16	835.57
837.34	815.09
837.51	784.37
837.68	849.91
837.86	854.00
838.03	849.91
838.20	864.24
838.37	913.39
838.55	864.24
838.72	856.05
838.89	919.54
839.06	825.33
839.24	817.14
839.41	823.28
839.58	868.34
839.75	856.05
839.93	856.05
840.10	878.58
840.27	894.96
840.44	825.33
840.62	856.05
840.79	864.24
840.96	827.38
841.13	845.81
841.30	845.81
841.48	811.00
841.65	817.14
841.82	894.96
841.99	866.29
842.17	901.11
842.34	847.86
842.51	899.06
842.68	929.78
842.85	788.47
843.03	886.77
843.20	894.96
843.37	864.24
843.54	956.40
843.71	897.01
843.89	749.56
844.06	819.19
844.23	837.62
844.40	884.72
844.57	892.91
844.75	864.24
844.92	749.56
845.09	921.59
845.26	903.15
845.43	866.29
845.61	978.93
845.78	784.37
845.95	833.52
846.12	880.63
846.29	847.86
846.47	851.96
846.64	851.96
846.81	833.52
846.98	854.00
847.15	888.82
847.32	878.58
847.50	845.81
847.67	831.48
847.84	821.24
848.01	894.96
848.18	862.19
848.35	829.43
848.52	765.94
848.70	905.20
848.87	870.39
849.04	927.73
849.21	833.52
849.38	831.48
849.55	872.43
849.73	882.67
849.90	946.16
850.07	878.58
850.24	909.30
850.41	903.15
850.58	813.04
850.75	944.11
850.92	878.58
851.10	749.56
851.27	813.04
851.44	804.85
851.61	927.73
851.78	823.28
851.95	856.05
852.12	815.09
852.29	886.77
852.47	860.15
852.64	882.67
852.81	849.91
852.98	829.43
853.15	864.24
853.32	858.10
853.49	897.01
853.66	790.52
853.83	905.20
854.01	833.52
854.18	903.15
854.35	866.29
854.52	849.91
854.69	839.67
854.86	870.39
855.03	827.38
855.20	847.86
855.37	829.43
855.54	821.24
855.71	823.28
855.88	882.67
856.06	837.62
856.23	946.16
856.40	835.57
856.57	911.35
856.74	862.19
856.91	782.32
857.08	847.86
857.25	860.15
857.42	882.67
857.59	843.76
857.76	786.42
857.93	872.43
858.10	811.00
858.27	819.19
858.44	778.23
858.61	907.25
858.79	811.00
858.96	905.20
859.13	905.20
859.30	888.82
859.47	851.96
859.64	804.85
859.81	862.19
859.98	831.48
860.15	813.04
860.32	856.05
860.49	847.86
860.66	886.77
860.83	761.84
861.00	858.10
861.17	835.57
861.34	878.58
861.51	937.97
861.68	880.63
861.85	870.39
862.02	860.15
862.19	813.04
862.36	888.82
862.53	839.67
862.70	835.57
862.87	856.05
863.04	856.05
863.21	835.57
863.38	897.01
863.55	856.05
863.72	905.20
863.89	878.58
864.06	909.30
864.23	845.81
864.40	860.15
864.57	841.72
864.74	894.96
864.91	860.15
865.08	886.77
865.25	833.52
865.42	858.10
865.59	780.28
865.76	860.15
865.93	862.19
866.10	811.00
866.27	798.71
866.44	880.63
866.61	921.59
866.78	821.24
866.95	811.00
867.12	929.78
867.29	833.52
867.46	839.67
867.63	770.04
867.79	823.28
867.96	856.05
868.13	821.24
868.30	815.09
868.47	894.96
868.64	780.28
868.81	903.15
868.98	825.33
869.15	927.73
869.32	813.04
869.49	843.76
869.66	841.72
869.83	794.61
870.00	819.19
870.17	839.67
870.34	915.44
870.50	892.91
870.67	829.43
870.84	806.90
871.01	880.63
871.18	798.71
871.35	845.81
871.52	880.63
871.69	837.62
871.86	796.66
872.03	841.72
872.20	819.19
872.36	827.38
872.53	823.28
872.70	876.53
872.87	890.87
873.04	808.95
873.21	827.38
873.38	837.62
873.55	804.85
873.72	841.72
873.89	829.43
874.05	888.82
874.22	790.52
874.39	813.04
874.56	864.24
874.73	749.56
874.90	870.39
875.07	872.43
875.24	819.19
875.40	821.24
875.57	831.48
875.74	886.77
875.91	841.72
876.08	851.96
876.25	798.71
876.42	876.53
876.58	835.57
876.75	862.19
876.92	927.73
877.09	831.48
877.26	868.34
877.43	821.24
877.60	839.67
877.76	911.35
877.93	872.43
878.10	851.96
878.27	905.20
878.44	823.28
878.61	839.67
878.77	833.52
878.94	884.72
879.11	835.57
879.28	843.76
879.45	892.91
879.62	837.62
879.78	954.35
879.95	884.72
880.12	821.24
880.29	888.82
880.46	870.39
880.63	864.24
880.79	831.48
880.96	1003.50
881.13	839.67
881.30	946.16
881.47	794.61
881.63	819.19
881.80	913.39
881.97	858.10
882.14	827.38
882.31	825.33
882.47	782.32
882.64	854.00
882.81	868.34
882.98	833.52
883.15	851.96
883.31	851.96
883.48	894.96
883.65	858.10
883.82	876.53
883.98	860.15
884.15	800.76
884.32	884.72
884.49	835.57
884.66	888.82
884.82	839.67
884.99	839.67
885.16	882.67
885.33	868.34
885.49	876.53
885.66	808.95
885.83	811.00
886.00	882.67
886.16	776.18
886.33	856.05
886.50	825.33
886.67	817.14
886.83	753.65
887.00	888.82
887.17	792.56
887.34	733.17
887.50	827.38
887.67	868.34
887.84	755.70
888.01	911.35
888.17	839.67
888.34	813.04
888.51	921.59
888.67	811.00
888.84	821.24
>>>>>End Processed Spectral Data<<<<<
